Folder: random_projects/kikuchipy

File: spectru_precip.msa
#FORMAT      : EMSA/MAS Spectral Data File
#VERSION     : 1.0
#DATE        :
#TIME        :
#OWNER       :
#NPOINTS     : 1000
#NCOLUMNS    : 1
#DATATYPE    : Y
#SIGNALTYPE  : EDS_SEM
#XPERCHAN    : 0.01
#OFFSET      : 0.0
#XLABEL      : Energy
#XUNITS      : keV
#COMMENT     : File created by HyperSpy version 1.7.5
#TITLE       : EDS Spectrum Image
#BEAMKV      : 10
#XTILTSTGE   : 70.0
#ELEVANGLE   : 35.0
#AZIMANGLE   : 61.0
#LIVETIME    : 2621.44
#FWHMMNKA    : 128.327
#SPECTRUM    : Spectral Data Starts Here
0.000000,
4.000000,
100,
377,
961,
1735,
2419,
2512,
1840,
1621,
1619,
1892,
2102,
2860,
2470,
2391,
2740,
2721,
2839,
2635,
2816,
2810,
2985,
3222,
3393,
3770,
4174,
4873,
5536,
7662,
46800,
194072,
155109,
25662,
3311,
2814,
14851,
39218,
23542,
5039,
1967,
1372,
1455,
1944,
1970,
1527,
1231,
1088,
1115,
1048,
1064,
1011,
926,
959,
958,
950,
926,
934,
888,
919,
911,
1013,
1174,
1151,
934,
828,
826,
835,
849,
905,
816,
784,
729,
694,
732,
774,
719,
633,
665,
697,
729,
656,
613,
625,
605,
653,
642,
647,
648,
720,
1660,
5387,
10105,
8994,
3852,
1133,
610,
540,
675,
1071,
1591,
1557,
964,
554,
437,
426,
452,
408,
439,
404,
411,
386,
400,
382,
373,
397,
374,
316,
369,
324,
339,
354,
359,
368,
354,
341,
277,
322,
303,
299,
325,
357,
293,
283,
318,
279,
270,
295,
256,
276,
267,
225,
259,
244,
276,
270,
306,
299,
332,
246,
231,
224,
216,
220,
209,
196,
214,
220,
195,
227,
221,
225,
208,
176,
178,
186,
158,
193,
164,
144,
165,
155,
154,
159,
153,
164,
155,
148,
138,
151,
119,
137,
134,
117,
117,
110,
130,
127,
92,
115,
94,
95,
100,
98,
100,
90,
78,
83,
88,
80,
69,
83,
59,
95,
69,
77,
77,
62,
60,
60,
65,
53,
76,
78,
71,
44,
68,
53,
43,
52,
47,
52,
48,
47,
35,
29,
36,
36,
25,
36,
35,
23,
39,
26,
27,
21,
19,
13,
18,
14,
12,
10,
6.000000,
13,
15,
18,
4.000000,
5.000000,
8.000000,
1.000000,
3.000000,
#ENDOFDATA   : End Of Data and File