Folder: random_projects/xrd

File: vals.txt
2theta back_cor
35.0 178.972
35.1 213.158
35.2 285.943
35.3 290.769
35.4 296.424
35.5 192.429
35.6 190.068
35.7 109.791
35.8 70.7574
35.9 48.7171
36.0 43.2977
36.1 23.9291
36.2 35.7964
36.3 47.1877
36.4 61.4688
36.5 25.9118
36.6 31.2047
36.7 68.3525
36.8 43.4112
36.9 45.6818
37.0 42.9253
37.1 34.7496
37.2 35.0149
37.3 26.4661
37.4 9.37911
37.5 26.369
37.6 -4.91312
37.7 3.08561
37.8 10.9482
37.9 -17.2053
38.0 -5.45685
38.1 18.3814
38.2 9.56764
38.3 18.4557
38.4 27.5597
38.5 -5.25143
38.6 6.52733
38.7 3.15099
38.8 2.64953
38.9 -1.62403
39.0 -8.45369
39.1 33.5135
39.2 31.7737
39.3 67.8567
39.4 98.8756
39.5 79.5244
39.6 72.1881
39.7 78.6876
39.8 16.6421
39.9 23.5285
40.0 14.5727
40.1 3.23289
40.2 3.38894
40.3 0.192879
40.4 6.37371
40.5 66.7854
40.6 135.848
40.7 313.981
40.8 535.676
40.9 741.334
41.0 841.344
41.1 775.343
41.2 587.507
41.3 356.364
41.4 151.877
41.5 54.2478
41.6 -20.5437
41.7 -24.9622
41.8 -25.0659
41.9 -13.9347
42.0 25.3734
42.1 53.5534
42.2 102.013
42.3 78.5571
42.4 52.0968
42.5 36.5174
42.6 -2.94913
42.7 10.7832
42.8 6.55849
42.9 40.5846
43.0 2.82369
43.1 8.01662
43.2 40.0994
43.3 56.0782
43.4 88.4198
43.5 195.298
43.6 444.939
43.7 779.855
43.8 1100.54
43.9 1294.75
44.0 1213.52
44.1 919.825
44.2 553.259
44.3 243.734
44.4 124.51
44.5 47.8775
44.6 47.3888
44.7 37.9
44.8 40.4301
44.9 40.4051
45.0 19.21
45.1 40.1548
45.2 55.4605
45.3 51.4721
45.4 73.7275
45.5 87.5469
45.6 127.727
45.7 158.845
45.8 183.356
45.9 228.763
46.0 230.377
46.1 271.289
46.2 398.083
46.3 782.176
46.4 1521.11
46.5 2630.53
46.6 3694.14
46.7 4279.84
46.8 3834.11
46.9 2812.52
47.0 1702.29
47.1 865.969
47.2 401.37
47.3 245.496
47.4 162.623
47.5 136.472
47.6 120.895
47.7 98.0717
47.8 67.6066
47.9 68.9494
48.0 45.6501
48.1 45.1407
48.2 44.6061
48.3 34.6475
48.4 54.4827
48.5 45.5359
48.6 27.5229
48.7 32.6478
48.8 30.6497
48.9 23.4264
49.0 48.983
49.1 37.7825
49.2 44.1859
49.3 41.6152
49.4 41.6773
49.5 30.4544
49.6 41.6084
49.7 46.4532
49.8 54.099
49.9 63.5876
50.0 67.6202
50.1 81.9546
50.2 72.1499
50.3 51.1901
50.4 40.7092
50.5 53.2812
50.6 27.3611
50.7 35.7809
50.8 54.6016
50.9 53.8901
51.0 44.7316
51.1 42.152
51.2 29.5252
51.3 29.4474
51.4 46.5844
51.5 47.1283
51.6 74.7891
51.7 95.2228
51.8 101.863
51.9 68.9929
52.0 50.3633
52.1 23.3926
52.2 27.9258
52.3 14.5969
52.4 36.3308
52.5 35.0977
52.6 15.9424
52.7 17.2121
52.8 7.25759
52.9 -5.57299
53.0 11.0403
53.1 6.95854
53.2 4.91064
53.3 2.28864
53.4 -7.49647
53.5 -13.4017
53.6 2.13298
53.7 -12.9985
53.8 -7.42099
53.9 5.91436
54.0 2.0406
54.1 12.1857
54.2 21.6808
54.3 38.9977
54.4 31.8895
54.5 15.7092
54.6 33.5928
54.7 23.1433
54.8 32.3867
54.9 54.093
55.0 73.1812
55.1 73.5132
55.2 84.1622
55.3 81.707
55.4 71.4798
55.5 72.8424
55.6 65.9339
55.7 40.8114
55.8 24.4277
55.9 53.0719
56.0 54.117
56.1 88.707
56.2 86.3678
56.3 69.3936
56.4 35.9323
56.5 33.5229
56.6 26.6213
56.7 16.3617
56.8 15.6599
56.9 12.568
57.0 41.5391
57.1 59.185
57.2 70.8538
57.3 48.3955
57.4 58.6251
57.5 21.3806
57.6 7.94598
57.7 8.99125
57.8 5.97442
57.9 3.59248
58.0 5.18244
58.1 12.2273
58.2 -3.99097
58.3 -8.67534
58.4 1.39218
58.5 -12.2904
58.6 -18.8831
58.7 -24.7779
58.8 -15.7178
58.9 -3.7278
59.0 8.24108
59.1 -1.85214
59.2 5.71152
59.3 3.98508
59.4 -8.94846
59.5 -7.34612
59.6 -16.0599
59.7 -17.9187
59.8 -16.0047
59.9 -9.01281
60.0 5.471
60.1 19.8317
60.2 26.1863
60.3 28.4358
60.4 36.1182
60.5 27.6814
60.6 15.0136
60.7 3.21166
60.8 13.7426
60.9 31.2205
61.0 67.7702
61.1 137.761
61.2 269.004
61.3 403.4
61.4 506.115
61.5 514.047
61.6 412.643
61.7 269.128
61.8 146.288
61.9 52.413
62.0 6.24866

File: vals.xy
2theta back_cor
35.0 203.668
35.1 237.819
35.2 310.569
35.3 315.359
35.4 320.979
35.5 216.949
35.6 214.553
35.7 134.24
35.8 95.1711
35.9 73.095
36.0 67.6396
36.1 48.2349
36.2 60.066
36.3 71.4209
36.4 85.6655
36.5 50.0719
36.6 55.3281
36.7 92.439
36.8 67.4607
36.9 69.6942
37.0 66.9004
37.1 58.6874
37.2 58.9151
37.3 50.3286
37.4 33.2039
37.5 50.1559
37.6 18.8357
37.7 26.7962
37.8 34.6205
37.9 6.42862
38.0 18.1385
38.1 41.9381
38.2 33.0854
38.3 41.9346
38.4 50.9994
38.5 18.1491
38.6 29.8885
38.7 26.4727
38.8 25.9316
38.9 21.6183
39.0 14.7488
39.1 56.676
39.2 54.896
39.3 90.9387
39.4 121.917
39.5 102.526
39.6 95.1486
39.7 101.607
39.8 39.5209
39.9 46.3663
40.0 37.3693
40.1 25.9882
40.2 26.1028
40.3 22.8652
40.4 29.0043
40.5 89.3742
40.6 158.395
40.7 336.485
40.8 558.139
40.9 763.754
41.0 863.722
41.1 797.678
41.2 609.799
41.3 378.614
41.4 174.084
41.5 76.4112
41.6 1.57645
41.7 -2.8855
41.8 -3.03269
41.9 8.05489
42.0 47.3192
42.1 75.4553
42.2 123.871
42.3 100.371
42.4 73.8662
42.5 58.2423
42.6 18.7313
42.7 32.4189
42.8 28.1494
42.9 62.1306
43.0 24.3245
43.1 29.4723
43.2 61.5097
43.3 77.443
43.4 109.739
43.5 216.572
43.6 466.166
43.7 801.037
43.8 1121.68
43.9 1315.84
44.0 1234.56
44.1 940.821
44.2 574.209
44.3 264.637
44.4 145.366
44.5 68.6865
44.6 68.1506
44.7 58.6145
44.8 61.0972
44.9 61.0247
45.0 39.7819
45.1 60.6789
45.2 75.9366
45.3 71.9001
45.4 94.1074
45.5 107.878
45.6 148.01
45.7 179.08
45.8 203.542
45.9 248.9
46.0 250.465
46.1 291.328
46.2 418.073
46.3 802.116
46.4 1541
46.5 2650.38
46.6 3713.93
46.7 4299.58
46.8 3853.81
46.9 2832.16
47.0 1721.88
47.1 885.509
47.2 420.859
47.3 264.935
47.4 182.012
47.5 155.809
47.6 140.181
47.7 117.307
47.8 86.7904
47.9 88.0817
48.0 64.7308
48.1 64.1696
48.2 63.5832
48.3 53.5726
48.4 73.3558
48.5 64.3566
48.6 46.2913
48.7 51.3637
48.8 49.3129
48.9 42.0369
49.0 67.5406
49.1 56.287
49.2 62.6373
49.3 60.0133
49.4 60.022
49.5 48.7456
49.6 59.8458
49.7 64.6369
49.8 72.2287
49.9 81.6633
50.0 85.6416
50.1 99.9217
50.2 90.0626
50.3 69.0482
50.4 58.5126
50.5 71.0297
50.6 45.0546
50.7 53.4193
50.8 72.1847
50.9 71.4179
51.0 62.2039
51.1 59.5686
51.2 46.8861
51.3 46.7524
51.4 63.8334
51.5 64.3211
51.6 91.9257
51.7 112.303
51.8 118.887
51.9 85.9598
52.0 67.2734
52.1 40.2458
52.2 44.7219
52.3 31.3358
52.4 53.0124
52.5 51.7218
52.6 32.509
52.7 33.7209
52.8 23.7086
52.9 10.82
53.0 27.3752
53.1 23.2352
53.2 21.1289
53.3 18.4484
53.4 8.60468
53.5 2.6407
53.6 18.1165
53.7 2.92603
53.8 8.44434
53.9 21.7204
54.0 17.7872
54.1 27.8728
54.2 37.3082
54.3 54.5653
54.4 47.3972
54.5 31.1568
54.6 48.9803
54.7 38.4704
54.8 47.6534
54.9 69.2991
55.0 88.3265
55.1 88.5977
55.2 99.1857
55.3 96.6695
55.4 86.381
55.5 87.6822
55.6 80.7123
55.7 55.5281
55.8 39.0826
55.9 67.665
56.0 68.648
56.1 103.176
56.2 100.774
56.3 83.7379
56.4 50.214
56.5 47.7419
56.6 40.7776
56.7 30.455
56.8 29.6902
56.9 26.5351
57.0 55.4428
57.1 73.0253
57.2 84.6305
57.3 62.1085
57.4 72.2743
57.5 34.9658
57.6 21.4671
57.7 22.4481
57.8 19.3669
57.9 16.9205
58.0 18.4458
58.1 25.4259
58.2 9.14278
58.3 4.3934
58.4 14.3958
58.5 0.647927
58.6 -6.01017
58.7 -11.9705
58.8 -2.97606
58.9 8.94813
59.0 20.8511
59.1 10.6918
59.2 18.1893
59.3 16.3965
59.4 3.39654
59.5 4.93231
59.6 -3.84815
59.7 -5.77386
59.8 -3.9268
59.9 2.99802
60.0 17.4146
60.1 31.7079
60.2 37.9951
60.3 40.1769
60.4 47.7916
60.5 39.2869
60.6 26.5511
60.7 14.681
60.8 25.1437
60.9 42.5532
61.0 79.0344
61.1 148.956
61.2 280.131
61.3 414.458
61.4 517.104
61.5 524.967
61.6 423.494
61.7 279.909
61.8 156.999
61.9 63.0545
62.0 16.8204